{
    "client": {
        "type": "visitor",
        "sid": "visitor-g90sy",
        "window": {
            "width": 980,
            "height": 926
        },
        "screen": {
            "width": 768,
            "height": 1024
        },
        "userAgent": "Mozilla\/5.0 (iPad; CPU OS 12_3_1 like Mac OS X) AppleWebKit\/605.1.15 (KHTML, like Gecko) Version\/12.1.1 Mobile\/15E148 Safari\/604.1",
        "score": 0,
        "bonus": 0
    },
    "expt": {
        "saveURL": "submit.simple.php",
        "trials": 20,
        "practiceTrials": 1,
        "marblesSampled": 6,
        "numPerDrawn": 2,
        "marbleSize": 20,
        "roles": [
            "liar",
            "detector"
        ],
        "allTrialProbs": [
            0.5
        ],
        "trialProbs": 0.5,
        "choiceArr": "oneRow",
        "catchTrials": [],
        "stat": {
            "redTotalScore": 72,
            "blueTotalScore": 33
        },
        "sona": {
            "experiment_id": 1505,
            "credit_token": "b20092f9d3b34a378ee654bcc50710ea"
        }
    },
    "trials": [
        {
            "exptPart": "practice",
            "trialNumber": 1,
            "liarPlayer": "red",
            "marblesSampled": 6,
            "probabilityRed": 0.5,
            "drawnRed": 4,
            "drawnBlue": 2,
            "reportedDrawn": 4,
            "callBS": false,
            "responseTime": 232573,
            "catchQuestion": "",
            "catchKey": -1,
            "catchResponse": -1,
            "catchResponseTime": -1,
            "trialTime": 128562
        },
        {
            "exptPart": "trial",
            "trialNumber": 1,
            "liarPlayer": "red",
            "marblesSampled": 6,
            "probabilityRed": 0.5,
            "drawnRed": 4,
            "drawnBlue": 2,
            "reportedDrawn": 4,
            "callBS": true,
            "responseTime": 18802,
            "catchQuestion": "",
            "catchKey": -1,
            "catchResponse": -1,
            "catchResponseTime": -1,
            "trialTime": 8866
        },
        {
            "exptPart": "trial",
            "trialNumber": 2,
            "liarPlayer": "blue",
            "marblesSampled": 6,
            "probabilityRed": 0.5,
            "drawnRed": 2,
            "drawnBlue": 4,
            "reportedDrawn": 4,
            "callBS": false,
            "responseTime": 19993,
            "catchQuestion": "",
            "catchKey": -1,
            "catchResponse": -1,
            "catchResponseTime": -1,
            "trialTime": 17327
        },
        {
            "exptPart": "trial",
            "trialNumber": 3,
            "liarPlayer": "red",
            "marblesSampled": 6,
            "probabilityRed": 0.5,
            "drawnRed": 2,
            "drawnBlue": 4,
            "reportedDrawn": 3,
            "callBS": false,
            "responseTime": 20432,
            "catchQuestion": "",
            "catchKey": -1,
            "catchResponse": -1,
            "catchResponseTime": -1,
            "trialTime": 7366
        },
        {
            "exptPart": "trial",
            "trialNumber": 4,
            "liarPlayer": "blue",
            "marblesSampled": 6,
            "probabilityRed": 0.5,
            "drawnRed": 3,
            "drawnBlue": 3,
            "reportedDrawn": 4,
            "callBS": true,
            "responseTime": 18161,
            "catchQuestion": "",
            "catchKey": -1,
            "catchResponse": -1,
            "catchResponseTime": -1,
            "trialTime": 5263
        },
        {
            "exptPart": "trial",
            "trialNumber": 5,
            "liarPlayer": "red",
            "marblesSampled": 6,
            "probabilityRed": 0.5,
            "drawnRed": 2,
            "drawnBlue": 4,
            "reportedDrawn": 2,
            "callBS": false,
            "responseTime": 24734,
            "catchQuestion": "",
            "catchKey": -1,
            "catchResponse": -1,
            "catchResponseTime": -1,
            "trialTime": 12655
        },
        {
            "exptPart": "trial",
            "trialNumber": 6,
            "liarPlayer": "blue",
            "marblesSampled": 6,
            "probabilityRed": 0.5,
            "drawnRed": 5,
            "drawnBlue": 1,
            "reportedDrawn": 1,
            "callBS": false,
            "responseTime": 23724,
            "catchQuestion": "",
            "catchKey": -1,
            "catchResponse": -1,
            "catchResponseTime": -1,
            "trialTime": 12190
        },
        {
            "exptPart": "trial",
            "trialNumber": 7,
            "liarPlayer": "red",
            "marblesSampled": 6,
            "probabilityRed": 0.5,
            "drawnRed": 2,
            "drawnBlue": 4,
            "reportedDrawn": 2,
            "callBS": false,
            "responseTime": 22083,
            "catchQuestion": "",
            "catchKey": -1,
            "catchResponse": -1,
            "catchResponseTime": -1,
            "trialTime": 13284
        },
        {
            "exptPart": "trial",
            "trialNumber": 8,
            "liarPlayer": "blue",
            "marblesSampled": 6,
            "probabilityRed": 0.5,
            "drawnRed": 2,
            "drawnBlue": 4,
            "reportedDrawn": 4,
            "callBS": true,
            "responseTime": 13955,
            "catchQuestion": "",
            "catchKey": -1,
            "catchResponse": -1,
            "catchResponseTime": -1,
            "trialTime": 5468
        },
        {
            "exptPart": "trial",
            "trialNumber": 9,
            "liarPlayer": "red",
            "marblesSampled": 6,
            "probabilityRed": 0.5,
            "drawnRed": 3,
            "drawnBlue": 3,
            "reportedDrawn": 3,
            "callBS": false,
            "responseTime": 20878,
            "catchQuestion": "",
            "catchKey": -1,
            "catchResponse": -1,
            "catchResponseTime": -1,
            "trialTime": 11897
        },
        {
            "exptPart": "trial",
            "trialNumber": 10,
            "liarPlayer": "blue",
            "marblesSampled": 6,
            "probabilityRed": 0.5,
            "drawnRed": 5,
            "drawnBlue": 1,
            "reportedDrawn": 1,
            "callBS": true,
            "responseTime": 35143,
            "catchQuestion": "",
            "catchKey": -1,
            "catchResponse": -1,
            "catchResponseTime": -1,
            "trialTime": 16741
        },
        {
            "exptPart": "trial",
            "trialNumber": 11,
            "liarPlayer": "red",
            "marblesSampled": 6,
            "probabilityRed": 0.5,
            "drawnRed": 0,
            "drawnBlue": 6,
            "reportedDrawn": 0,
            "callBS": true,
            "responseTime": 40160,
            "catchQuestion": "",
            "catchKey": -1,
            "catchResponse": -1,
            "catchResponseTime": -1,
            "trialTime": 23619
        },
        {
            "exptPart": "trial",
            "trialNumber": 12,
            "liarPlayer": "blue",
            "marblesSampled": 6,
            "probabilityRed": 0.5,
            "drawnRed": 5,
            "drawnBlue": 1,
            "reportedDrawn": 1,
            "callBS": false,
            "responseTime": 29002,
            "catchQuestion": "",
            "catchKey": -1,
            "catchResponse": -1,
            "catchResponseTime": -1,
            "trialTime": 8871
        },
        {
            "exptPart": "trial",
            "trialNumber": 13,
            "liarPlayer": "red",
            "marblesSampled": 6,
            "probabilityRed": 0.5,
            "drawnRed": 3,
            "drawnBlue": 3,
            "reportedDrawn": 3,
            "callBS": true,
            "responseTime": 15110,
            "catchQuestion": "",
            "catchKey": -1,
            "catchResponse": -1,
            "catchResponseTime": -1,
            "trialTime": 7206
        },
        {
            "exptPart": "trial",
            "trialNumber": 14,
            "liarPlayer": "blue",
            "marblesSampled": 6,
            "probabilityRed": 0.5,
            "drawnRed": 3,
            "drawnBlue": 3,
            "reportedDrawn": 5,
            "callBS": false,
            "responseTime": 22135,
            "catchQuestion": "",
            "catchKey": -1,
            "catchResponse": -1,
            "catchResponseTime": -1,
            "trialTime": 16318
        },
        {
            "exptPart": "trial",
            "trialNumber": 15,
            "liarPlayer": "red",
            "marblesSampled": 6,
            "probabilityRed": 0.5,
            "drawnRed": 4,
            "drawnBlue": 2,
            "reportedDrawn": 4,
            "callBS": false,
            "responseTime": 11489,
            "catchQuestion": "",
            "catchKey": -1,
            "catchResponse": -1,
            "catchResponseTime": -1,
            "trialTime": 3909
        },
        {
            "exptPart": "trial",
            "trialNumber": 16,
            "liarPlayer": "blue",
            "marblesSampled": 6,
            "probabilityRed": 0.5,
            "drawnRed": 4,
            "drawnBlue": 2,
            "reportedDrawn": 4,
            "callBS": true,
            "responseTime": 13520,
            "catchQuestion": "",
            "catchKey": -1,
            "catchResponse": -1,
            "catchResponseTime": -1,
            "trialTime": 5273
        },
        {
            "exptPart": "trial",
            "trialNumber": 17,
            "liarPlayer": "red",
            "marblesSampled": 6,
            "probabilityRed": 0.5,
            "drawnRed": 4,
            "drawnBlue": 2,
            "reportedDrawn": 4,
            "callBS": false,
            "responseTime": 11116,
            "catchQuestion": "",
            "catchKey": -1,
            "catchResponse": -1,
            "catchResponseTime": -1,
            "trialTime": 4659
        },
        {
            "exptPart": "trial",
            "trialNumber": 18,
            "liarPlayer": "blue",
            "marblesSampled": 6,
            "probabilityRed": 0.5,
            "drawnRed": 3,
            "drawnBlue": 3,
            "reportedDrawn": 1,
            "callBS": true,
            "responseTime": 12961,
            "catchQuestion": "",
            "catchKey": -1,
            "catchResponse": -1,
            "catchResponseTime": -1,
            "trialTime": 7541
        },
        {
            "exptPart": "trial",
            "trialNumber": 19,
            "liarPlayer": "red",
            "marblesSampled": 6,
            "probabilityRed": 0.5,
            "drawnRed": 5,
            "drawnBlue": 1,
            "reportedDrawn": 5,
            "callBS": false,
            "responseTime": 9995,
            "catchQuestion": "",
            "catchKey": -1,
            "catchResponse": -1,
            "catchResponseTime": -1,
            "trialTime": 3843
        },
        {
            "exptPart": "trial",
            "trialNumber": 20,
            "liarPlayer": "blue",
            "marblesSampled": 6,
            "probabilityRed": 0.5,
            "drawnRed": 4,
            "drawnBlue": 2,
            "reportedDrawn": 0,
            "callBS": true,
            "responseTime": 18341,
            "catchQuestion": "",
            "catchKey": -1,
            "catchResponse": -1,
            "catchResponseTime": -1,
            "trialTime": 11840
        }
    ]
}