{
    "client": {
        "type": "visitor",
        "sid": "visitor-xqliw",
        "window": {
            "width": 980,
            "height": 637
        },
        "screen": {
            "width": 768,
            "height": 1024
        },
        "userAgent": "Mozilla\/5.0 (iPad; CPU OS 12_3_1 like Mac OS X) AppleWebKit\/605.1.15 (KHTML, like Gecko) Version\/12.1.1 Mobile\/15E148 Safari\/604.1",
        "score": 0,
        "bonus": 0
    },
    "expt": {
        "saveURL": "submit.simple.php",
        "trials": 20,
        "practiceTrials": 1,
        "marblesSampled": 6,
        "numPerDrawn": 2,
        "marbleSize": 20,
        "roles": [
            "liar",
            "detector"
        ],
        "allTrialProbs": [
            0.5
        ],
        "trialProbs": 0.5,
        "choiceArr": "oneRow",
        "catchTrials": [],
        "stat": {
            "redTotalScore": 67,
            "blueTotalScore": 42
        },
        "sona": {
            "experiment_id": 1505,
            "credit_token": "b20092f9d3b34a378ee654bcc50710ea"
        }
    },
    "trials": [
        {
            "exptPart": "practice",
            "trialNumber": 1,
            "roleCurrent": "detector",
            "marblesSampled": 6,
            "probabilityRed": 0.5,
            "drawnRed": 4,
            "reportedDrawn": 2,
            "callBS": true,
            "responseTime": 174726,
            "catchQuestion": "",
            "catchKey": -1,
            "catchResponse": -1,
            "catchResponseTime": -1,
            "trialTime": 77047
        },
        {
            "exptPart": "trial",
            "trialNumber": 1,
            "roleCurrent": "detector",
            "marblesSampled": 6,
            "probabilityRed": 0.5,
            "drawnRed": 2,
            "reportedDrawn": 4,
            "callBS": false,
            "responseTime": 19664,
            "catchQuestion": "",
            "catchKey": -1,
            "catchResponse": -1,
            "catchResponseTime": -1,
            "trialTime": 6059
        },
        {
            "exptPart": "trial",
            "trialNumber": 2,
            "roleCurrent": "detector",
            "marblesSampled": 6,
            "probabilityRed": 0.5,
            "drawnRed": 3,
            "reportedDrawn": 3,
            "callBS": true,
            "responseTime": 13981,
            "catchQuestion": "",
            "catchKey": -1,
            "catchResponse": -1,
            "catchResponseTime": -1,
            "trialTime": 4432
        },
        {
            "exptPart": "trial",
            "trialNumber": 3,
            "roleCurrent": "detector",
            "marblesSampled": 6,
            "probabilityRed": 0.5,
            "drawnRed": 2,
            "reportedDrawn": 5,
            "callBS": false,
            "responseTime": 19065,
            "catchQuestion": "",
            "catchKey": -1,
            "catchResponse": -1,
            "catchResponseTime": -1,
            "trialTime": 5397
        },
        {
            "exptPart": "trial",
            "trialNumber": 4,
            "roleCurrent": "detector",
            "marblesSampled": 6,
            "probabilityRed": 0.5,
            "drawnRed": 2,
            "reportedDrawn": 5,
            "callBS": false,
            "responseTime": 19737,
            "catchQuestion": "",
            "catchKey": -1,
            "catchResponse": -1,
            "catchResponseTime": -1,
            "trialTime": 7082
        },
        {
            "exptPart": "trial",
            "trialNumber": 5,
            "roleCurrent": "detector",
            "marblesSampled": 6,
            "probabilityRed": 0.5,
            "drawnRed": 4,
            "reportedDrawn": 4,
            "callBS": true,
            "responseTime": 16223,
            "catchQuestion": "",
            "catchKey": -1,
            "catchResponse": -1,
            "catchResponseTime": -1,
            "trialTime": 6117
        },
        {
            "exptPart": "trial",
            "trialNumber": 6,
            "roleCurrent": "detector",
            "marblesSampled": 6,
            "probabilityRed": 0.5,
            "drawnRed": 2,
            "reportedDrawn": 3,
            "callBS": false,
            "responseTime": 12354,
            "catchQuestion": "",
            "catchKey": -1,
            "catchResponse": -1,
            "catchResponseTime": -1,
            "trialTime": 4342
        },
        {
            "exptPart": "trial",
            "trialNumber": 7,
            "roleCurrent": "detector",
            "marblesSampled": 6,
            "probabilityRed": 0.5,
            "drawnRed": 3,
            "reportedDrawn": 3,
            "callBS": false,
            "responseTime": 14410,
            "catchQuestion": "",
            "catchKey": -1,
            "catchResponse": -1,
            "catchResponseTime": -1,
            "trialTime": 11289
        },
        {
            "exptPart": "trial",
            "trialNumber": 8,
            "roleCurrent": "detector",
            "marblesSampled": 6,
            "probabilityRed": 0.5,
            "drawnRed": 2,
            "reportedDrawn": 2,
            "callBS": false,
            "responseTime": 17684,
            "catchQuestion": "",
            "catchKey": -1,
            "catchResponse": -1,
            "catchResponseTime": -1,
            "trialTime": 6024
        },
        {
            "exptPart": "trial",
            "trialNumber": 9,
            "roleCurrent": "detector",
            "marblesSampled": 6,
            "probabilityRed": 0.5,
            "drawnRed": 4,
            "reportedDrawn": 4,
            "callBS": true,
            "responseTime": 15677,
            "catchQuestion": "",
            "catchKey": -1,
            "catchResponse": -1,
            "catchResponseTime": -1,
            "trialTime": 6273
        },
        {
            "exptPart": "trial",
            "trialNumber": 10,
            "roleCurrent": "detector",
            "marblesSampled": 6,
            "probabilityRed": 0.5,
            "drawnRed": 4,
            "reportedDrawn": 4,
            "callBS": false,
            "responseTime": 18175,
            "catchQuestion": "",
            "catchKey": -1,
            "catchResponse": -1,
            "catchResponseTime": -1,
            "trialTime": 7345
        },
        {
            "exptPart": "trial",
            "trialNumber": 11,
            "roleCurrent": "detector",
            "marblesSampled": 6,
            "probabilityRed": 0.5,
            "drawnRed": 3,
            "reportedDrawn": 3,
            "callBS": false,
            "responseTime": 13870,
            "catchQuestion": "",
            "catchKey": -1,
            "catchResponse": -1,
            "catchResponseTime": -1,
            "trialTime": 12365
        },
        {
            "exptPart": "trial",
            "trialNumber": 12,
            "roleCurrent": "detector",
            "marblesSampled": 6,
            "probabilityRed": 0.5,
            "drawnRed": 3,
            "reportedDrawn": 4,
            "callBS": false,
            "responseTime": 11950,
            "catchQuestion": "",
            "catchKey": -1,
            "catchResponse": -1,
            "catchResponseTime": -1,
            "trialTime": 4853
        },
        {
            "exptPart": "trial",
            "trialNumber": 13,
            "roleCurrent": "detector",
            "marblesSampled": 6,
            "probabilityRed": 0.5,
            "drawnRed": 3,
            "reportedDrawn": 3,
            "callBS": true,
            "responseTime": 13546,
            "catchQuestion": "",
            "catchKey": -1,
            "catchResponse": -1,
            "catchResponseTime": -1,
            "trialTime": 4113
        },
        {
            "exptPart": "trial",
            "trialNumber": 14,
            "roleCurrent": "detector",
            "marblesSampled": 6,
            "probabilityRed": 0.5,
            "drawnRed": 4,
            "reportedDrawn": 3,
            "callBS": false,
            "responseTime": 18461,
            "catchQuestion": "",
            "catchKey": -1,
            "catchResponse": -1,
            "catchResponseTime": -1,
            "trialTime": 6381
        },
        {
            "exptPart": "trial",
            "trialNumber": 15,
            "roleCurrent": "detector",
            "marblesSampled": 6,
            "probabilityRed": 0.5,
            "drawnRed": 4,
            "reportedDrawn": 4,
            "callBS": false,
            "responseTime": 12934,
            "catchQuestion": "",
            "catchKey": -1,
            "catchResponse": -1,
            "catchResponseTime": -1,
            "trialTime": 4440
        },
        {
            "exptPart": "trial",
            "trialNumber": 16,
            "roleCurrent": "detector",
            "marblesSampled": 6,
            "probabilityRed": 0.5,
            "drawnRed": 5,
            "reportedDrawn": 2,
            "callBS": false,
            "responseTime": 11053,
            "catchQuestion": "",
            "catchKey": -1,
            "catchResponse": -1,
            "catchResponseTime": -1,
            "trialTime": 6219
        },
        {
            "exptPart": "trial",
            "trialNumber": 17,
            "roleCurrent": "detector",
            "marblesSampled": 6,
            "probabilityRed": 0.5,
            "drawnRed": 1,
            "reportedDrawn": 5,
            "callBS": true,
            "responseTime": 15111,
            "catchQuestion": "",
            "catchKey": -1,
            "catchResponse": -1,
            "catchResponseTime": -1,
            "trialTime": 6049
        },
        {
            "exptPart": "trial",
            "trialNumber": 18,
            "roleCurrent": "detector",
            "marblesSampled": 6,
            "probabilityRed": 0.5,
            "drawnRed": 4,
            "reportedDrawn": 3,
            "callBS": false,
            "responseTime": 8912,
            "catchQuestion": "",
            "catchKey": -1,
            "catchResponse": -1,
            "catchResponseTime": -1,
            "trialTime": 3700
        },
        {
            "exptPart": "trial",
            "trialNumber": 19,
            "roleCurrent": "detector",
            "marblesSampled": 6,
            "probabilityRed": 0.5,
            "drawnRed": 5,
            "reportedDrawn": 5,
            "callBS": false,
            "responseTime": 16135,
            "catchQuestion": "",
            "catchKey": -1,
            "catchResponse": -1,
            "catchResponseTime": -1,
            "trialTime": 8602
        },
        {
            "exptPart": "trial",
            "trialNumber": 20,
            "roleCurrent": "detector",
            "marblesSampled": 6,
            "probabilityRed": 0.5,
            "drawnRed": 4,
            "reportedDrawn": 4,
            "callBS": true,
            "responseTime": 13155,
            "catchQuestion": "",
            "catchKey": -1,
            "catchResponse": -1,
            "catchResponseTime": -1,
            "trialTime": 3403
        }
    ]
}